Longitud de onda (nm),Absorbancia GOTAS LIMPIAR LENTES
379.986,0.666
380.234,0.668
380.484,0.668
380.734,0.667
380.986,0.666
381.238,0.663
381.492,0.661
381.747,0.656
382.003,0.651
382.26,0.644
382.518,0.636
382.777,0.63
383.037,0.624
383.298,0.617
383.56,0.611
383.823,0.605
384.087,0.596
384.352,0.588
384.618,0.58
384.885,0.572
385.153,0.566
385.421,0.557
385.691,0.546
385.961,0.535
386.232,0.527
386.504,0.519
386.777,0.515
387.051,0.508
387.326,0.503
387.601,0.497
387.877,0.489
388.154,0.482
388.432,0.48
388.71,0.476
388.989,0.473
389.269,0.469
389.55,0.468
389.831,0.465
390.113,0.464
390.396,0.463
390.68,0.462
390.964,0.46
391.249,0.457
391.534,0.455
391.82,0.453
392.107,0.452
392.394,0.449
392.682,0.444
392.971,0.442
393.26,0.439
393.55,0.435
393.84,0.433
394.131,0.431
394.423,0.428
394.715,0.427
395.007,0.427
395.3,0.426
395.594,0.426
395.888,0.424
396.182,0.422
396.478,0.421
396.773,0.422
397.069,0.423
397.366,0.423
397.663,0.42
397.96,0.421
398.258,0.421
398.556,0.423
398.855,0.429
399.154,0.43
399.454,0.43
399.754,0.429
400.054,0.43
400.355,0.431
400.656,0.434
400.958,0.439
401.26,0.441
401.562,0.443
401.864,0.444
402.167,0.445
402.471,0.445
402.774,0.447
403.078,0.449
403.382,0.451
403.687,0.453
403.992,0.455
404.297,0.455
404.602,0.456
404.908,0.455
405.214,0.456
405.52,0.459
405.827,0.461
406.134,0.462
406.441,0.461
406.748,0.461
407.055,0.461
407.363,0.461
407.671,0.461
407.979,0.462
408.287,0.462
408.596,0.462
408.905,0.462
409.214,0.461
409.523,0.461
409.832,0.462
410.142,0.461
410.452,0.461
410.761,0.461
411.072,0.462
411.382,0.462
411.692,0.462
412.003,0.462
412.313,0.46
412.624,0.46
412.935,0.458
413.246,0.458
413.557,0.457
413.868,0.456
414.18,0.455
414.491,0.455
414.803,0.453
415.114,0.451
415.426,0.45
415.738,0.449
416.05,0.447
416.362,0.446
416.674,0.445
416.986,0.444
417.298,0.441
417.611,0.439
417.923,0.436
418.235,0.433
418.548,0.429
418.86,0.426
419.173,0.423
419.486,0.421
419.798,0.418
420.111,0.414
420.423,0.412
420.736,0.409
421.049,0.406
421.362,0.403
421.674,0.402
421.987,0.4
422.3,0.397
422.613,0.394
422.925,0.392
423.238,0.39
423.551,0.387
423.864,0.385
424.176,0.381
424.489,0.378
424.802,0.376
425.114,0.374
425.427,0.372
425.74,0.371
426.052,0.369
426.365,0.368
426.677,0.366
426.99,0.364
427.302,0.362
427.614,0.361
427.927,0.359
428.239,0.357
428.551,0.355
428.863,0.353
429.175,0.351
429.487,0.349
429.799,0.349
430.111,0.348
430.423,0.347
430.735,0.346
431.047,0.344
431.358,0.342
431.67,0.341
431.981,0.34
432.293,0.339
432.604,0.338
432.915,0.337
433.226,0.336
433.537,0.334
433.848,0.333
434.159,0.333
434.47,0.331
434.78,0.329
435.091,0.328
435.401,0.328
435.711,0.328
436.022,0.328
436.332,0.329
436.642,0.328
436.952,0.326
437.261,0.325
437.571,0.324
437.881,0.324
438.19,0.324
438.499,0.323
438.809,0.323
439.118,0.323
439.427,0.323
439.735,0.323
440.044,0.322
440.353,0.321
440.661,0.32
440.97,0.32
441.278,0.321
441.586,0.322
441.894,0.323
442.202,0.324
442.509,0.324
442.817,0.324
443.124,0.323
443.431,0.324
443.738,0.324
444.045,0.326
444.352,0.328
444.659,0.329
444.966,0.329
445.272,0.329
445.578,0.329
445.884,0.329
446.19,0.329
446.496,0.328
446.802,0.328
447.107,0.33
447.413,0.331
447.718,0.331
448.023,0.332
448.328,0.333
448.633,0.333
448.937,0.333
449.242,0.333
449.546,0.333
449.85,0.332
450.154,0.332
450.458,0.332
450.762,0.331
451.066,0.331
451.369,0.331
451.672,0.331
451.975,0.33
452.278,0.329
452.581,0.328
452.884,0.328
453.186,0.328
453.488,0.328
453.791,0.327
454.093,0.327
454.394,0.326
454.696,0.327
454.998,0.327
455.299,0.327
455.6,0.326
455.901,0.325
456.202,0.324
456.503,0.323
456.803,0.322
457.104,0.322
457.404,0.323
457.704,0.322
458.004,0.321
458.304,0.322
458.604,0.322
458.903,0.321
459.202,0.319
459.502,0.318
459.801,0.316
460.099,0.317
460.398,0.318
460.697,0.319
460.995,0.319
461.293,0.32
461.591,0.319
461.889,0.319
462.187,0.319
462.484,0.319
462.782,0.318
463.079,0.318
463.376,0.317
463.673,0.317
463.97,0.315
464.267,0.313
464.563,0.311
464.86,0.311
465.156,0.31
465.452,0.309
465.748,0.307
466.043,0.307
466.339,0.307
466.634,0.309
466.93,0.308
467.225,0.309
467.52,0.31
467.815,0.309
468.109,0.308
468.404,0.307
468.698,0.306
468.992,0.306
469.287,0.304
469.58,0.303
469.874,0.302
470.168,0.302
470.461,0.302
470.755,0.302
471.048,0.301
471.341,0.303
471.634,0.303
471.927,0.301
472.219,0.3
472.512,0.3
472.804,0.3
473.097,0.301
473.389,0.302
473.681,0.302
473.972,0.301
474.264,0.299
474.556,0.298
474.847,0.299
475.138,0.297
475.43,0.298
475.721,0.298
476.011,0.298
476.302,0.299
476.593,0.298
476.883,0.298
477.174,0.298
477.464,0.297
477.754,0.297
478.044,0.297
478.334,0.296
478.623,0.295
478.913,0.293
479.203,0.293
479.492,0.294
479.781,0.294
480.07,0.296
480.359,0.297
480.648,0.296
480.937,0.297
481.225,0.297
481.514,0.294
481.802,0.291
482.091,0.29
482.379,0.289
482.667,0.29
482.955,0.29
483.242,0.288
483.53,0.286
483.818,0.286
484.105,0.285
484.393,0.284
484.68,0.285
484.967,0.284
485.254,0.282
485.541,0.281
485.828,0.282
486.115,0.282
486.401,0.281
486.688,0.28
486.974,0.28
487.261,0.279
487.547,0.277
487.833,0.277
488.119,0.275
488.405,0.275
488.691,0.276
488.976,0.275
489.262,0.275
489.548,0.274
489.833,0.272
490.118,0.272
490.404,0.273
490.689,0.274
490.974,0.273
491.259,0.273
491.544,0.272
491.829,0.272
492.114,0.272
492.398,0.271
492.683,0.27
492.967,0.271
493.252,0.272
493.536,0.272
493.82,0.271
494.104,0.268
494.389,0.267
494.673,0.267
494.957,0.266
495.24,0.269
495.524,0.27
495.808,0.27
496.092,0.272
496.375,0.273
496.659,0.274
496.942,0.273
497.226,0.27
497.509,0.266
497.792,0.265
498.075,0.266
498.358,0.265
498.641,0.265
498.924,0.265
499.207,0.266
499.49,0.266
499.773,0.268
500.056,0.268
500.338,0.266
500.621,0.266
500.904,0.263
501.186,0.263
501.469,0.261
501.751,0.262
502.033,0.262
502.316,0.262
502.598,0.263
502.88,0.263
503.162,0.262
503.444,0.263
503.726,0.265
504.008,0.265
504.29,0.264
504.572,0.262
504.854,0.262
505.136,0.264
505.417,0.265
505.699,0.262
505.981,0.262
506.263,0.262
506.544,0.261
506.826,0.258
507.107,0.26
507.389,0.263
507.67,0.265
507.952,0.266
508.233,0.265
508.514,0.264
508.796,0.264
509.077,0.264
509.358,0.264
509.639,0.263
509.921,0.266
510.202,0.265
510.483,0.264
510.764,0.262
511.045,0.261
511.326,0.26
511.607,0.26
511.888,0.26
512.169,0.259
512.45,0.261
512.731,0.26
513.012,0.261
513.293,0.262
513.574,0.262
513.855,0.264
514.136,0.263
514.416,0.261
514.697,0.257
514.978,0.257
515.259,0.257
515.54,0.257
515.82,0.258
516.101,0.257
516.382,0.256
516.662,0.255
516.943,0.256
517.224,0.256
517.505,0.255
517.785,0.256
518.066,0.256
518.347,0.255
518.627,0.254
518.908,0.257
519.189,0.259
519.469,0.26
519.75,0.26
520.03,0.261
520.311,0.262
520.592,0.26
520.872,0.259
521.153,0.259
521.434,0.26
521.714,0.26
521.995,0.26
522.276,0.259
522.556,0.258
522.837,0.259
523.118,0.259
523.398,0.259
523.679,0.26
523.96,0.26
524.24,0.262
524.521,0.262
524.802,0.262
525.082,0.263
525.363,0.263
525.644,0.265
525.924,0.265
526.205,0.264
526.486,0.265
526.767,0.265
527.047,0.267
527.328,0.269
527.609,0.271
527.89,0.269
528.171,0.267
528.452,0.266
528.732,0.266
529.013,0.265
529.294,0.265
529.575,0.268
529.856,0.268
530.137,0.269
530.418,0.267
530.699,0.268
530.98,0.271
531.261,0.272
531.542,0.273
531.823,0.271
532.104,0.272
532.385,0.273
532.666,0.275
532.948,0.274
533.229,0.273
533.51,0.272
533.791,0.272
534.073,0.275
534.354,0.276
534.635,0.276
534.916,0.277
535.198,0.277
535.479,0.276
535.761,0.276
536.042,0.276
536.323,0.276
536.605,0.278
536.887,0.279
537.168,0.28
537.45,0.28
537.731,0.281
538.013,0.282
538.295,0.284
538.576,0.284
538.858,0.286
539.14,0.286
539.422,0.288
539.703,0.288
539.985,0.289
540.267,0.291
540.549,0.294
540.831,0.295
541.113,0.296
541.395,0.295
541.677,0.293
541.959,0.291
542.241,0.293
542.523,0.294
542.806,0.293
543.088,0.293
543.37,0.292
543.652,0.292
543.935,0.295
544.217,0.298
544.5,0.299
544.782,0.297
545.065,0.298
545.347,0.298
545.63,0.299
545.912,0.301
546.195,0.302
546.478,0.302
546.76,0.302
547.043,0.303
547.326,0.305
547.609,0.305
547.891,0.305
548.174,0.306
548.457,0.306
548.74,0.308
549.023,0.309
549.306,0.309
549.589,0.309
549.873,0.309
550.156,0.31
550.439,0.311
550.722,0.312
551.006,0.312
551.289,0.312
551.572,0.313
551.856,0.315
552.139,0.315
552.423,0.315
552.706,0.318
552.99,0.318
553.273,0.318
553.557,0.318
553.841,0.319
554.124,0.32
554.408,0.322
554.692,0.322
554.976,0.324
555.26,0.325
555.544,0.326
555.828,0.329
556.112,0.332
556.396,0.333
556.68,0.334
556.964,0.335
557.248,0.334
557.532,0.335
557.817,0.337
558.101,0.339
558.385,0.339
558.67,0.34
558.954,0.34
559.239,0.342
559.523,0.345
559.808,0.345
560.092,0.347
560.377,0.35
560.662,0.351
560.946,0.352
561.231,0.353
561.516,0.355
561.801,0.356
562.086,0.357
562.371,0.359
562.656,0.362
562.941,0.364
563.226,0.366
563.511,0.367
563.796,0.367
564.081,0.368
564.366,0.37
564.651,0.373
564.937,0.375
565.222,0.377
565.507,0.381
565.793,0.382
566.078,0.384
566.363,0.386
566.649,0.386
566.935,0.386
567.22,0.39
567.506,0.393
567.791,0.395
568.077,0.398
568.363,0.398
568.649,0.399
568.934,0.401
569.22,0.405
569.506,0.408
569.792,0.409
570.078,0.41
570.364,0.411
570.65,0.413
570.936,0.416
571.222,0.417
571.508,0.42
571.794,0.423
572.08,0.427
572.367,0.427
572.653,0.427
572.939,0.43
573.225,0.431
573.512,0.433
573.798,0.435
574.085,0.437
574.371,0.44
574.658,0.441
574.944,0.443
575.231,0.446
575.517,0.45
575.804,0.45
576.09,0.451
576.377,0.452
576.664,0.453
576.95,0.457
577.237,0.46
577.524,0.464
577.811,0.466
578.098,0.467
578.384,0.465
578.671,0.466
578.958,0.468
579.245,0.47
579.532,0.473
579.819,0.475
580.106,0.476
580.393,0.478
580.68,0.477
580.967,0.478
581.255,0.479
581.542,0.481
581.829,0.484
582.116,0.487
582.403,0.49
582.691,0.492
582.978,0.493
583.265,0.495
583.552,0.496
583.84,0.497
584.127,0.5
584.415,0.502
584.702,0.501
584.989,0.502
585.277,0.504
585.564,0.505
585.852,0.508
586.139,0.508
586.427,0.51
586.714,0.513
587.002,0.514
587.289,0.515
587.577,0.516
587.864,0.516
588.152,0.518
588.44,0.52
588.727,0.521
589.015,0.524
589.303,0.526
589.59,0.529
589.878,0.53
590.166,0.531
590.454,0.532
590.741,0.534
591.029,0.535
591.317,0.536
591.605,0.539
591.892,0.542
592.18,0.546
592.468,0.549
592.756,0.551
593.043,0.551
593.331,0.553
593.619,0.558
593.907,0.561
594.195,0.562
594.483,0.563
594.771,0.562
595.058,0.564
595.346,0.567
595.634,0.57
595.922,0.571
596.21,0.572
596.498,0.573
596.786,0.575
597.074,0.58
597.361,0.583
597.649,0.587
597.937,0.591
598.225,0.592
598.513,0.592
598.801,0.595
599.089,0.598
599.377,0.601
599.665,0.604
599.952,0.606
600.24,0.607
600.528,0.61
600.816,0.612
601.104,0.616
601.392,0.621
601.68,0.625
601.968,0.627
602.255,0.63
602.543,0.633
602.831,0.637
603.119,0.64
603.407,0.643
603.695,0.648
603.982,0.652
604.27,0.655
604.558,0.658
604.846,0.662
605.133,0.664
605.421,0.669
605.709,0.673
605.997,0.676
606.284,0.682
606.572,0.686
606.86,0.692
607.147,0.697
607.435,0.703
607.723,0.707
608.01,0.712
608.298,0.716
608.586,0.722
608.873,0.726
609.161,0.73
609.448,0.734
609.736,0.741
610.023,0.747
610.311,0.754
610.598,0.762
610.886,0.767
611.173,0.77
611.461,0.774
611.748,0.778
612.035,0.784
612.323,0.789
612.61,0.794
612.897,0.8
613.185,0.803
613.472,0.807
613.759,0.808
614.046,0.814
614.333,0.819
614.62,0.823
614.908,0.83
615.195,0.835
615.482,0.841
615.769,0.847
616.056,0.853
616.343,0.86
616.63,0.866
616.917,0.871
617.203,0.875
617.49,0.88
617.777,0.886
618.064,0.893
618.351,0.899
618.637,0.903
618.924,0.909
619.211,0.914
619.497,0.922
619.784,0.929
620.07,0.936
620.357,0.939
620.643,0.945
620.93,0.95
621.216,0.954
621.503,0.957
621.789,0.963
622.075,0.967
622.361,0.969
622.648,0.972
622.934,0.977
623.22,0.983
623.506,0.989
623.792,0.994
624.078,0.998
624.364,1.005
624.65,1.011
624.936,1.016
625.221,1.016
625.507,1.018
625.793,1.021
626.079,1.025
626.364,1.024
626.65,1.026
626.935,1.027
627.221,1.031
627.506,1.034
627.792,1.039
628.077,1.041
628.362,1.041
628.648,1.043
628.933,1.043
629.218,1.043
629.503,1.041
629.788,1.041
630.073,1.041
630.358,1.043
630.643,1.047
630.928,1.047
631.213,1.044
631.497,1.043
631.782,1.043
632.067,1.045
632.351,1.044
632.636,1.042
632.92,1.041
633.205,1.04
633.489,1.036
633.773,1.033
634.058,1.029
634.342,1.027
634.626,1.024
634.91,1.025
635.194,1.024
635.478,1.022
635.762,1.02
636.046,1.016
636.33,1.011
636.613,1.006
636.897,1.003
637.181,0.999
637.464,0.996
637.748,0.989
638.031,0.984
638.314,0.979
638.598,0.974
638.881,0.972
639.164,0.967
639.447,0.961
639.73,0.955
640.013,0.948
640.296,0.943
640.579,0.94
640.862,0.937
641.144,0.929
641.427,0.921
641.709,0.914
641.992,0.907
642.274,0.901
642.557,0.891
642.839,0.884
643.121,0.877
643.403,0.87
643.686,0.861
643.968,0.851
644.25,0.843
644.531,0.836
644.813,0.828
645.095,0.817
645.377,0.807
645.658,0.8
645.94,0.792
646.221,0.784
646.503,0.774
646.784,0.766
647.065,0.757
647.346,0.747
647.628,0.738
647.909,0.729
648.19,0.72
648.47,0.712
648.751,0.704
649.032,0.695
649.313,0.688
649.593,0.68
649.874,0.671
650.154,0.662
650.435,0.654
650.715,0.645
650.995,0.636
651.275,0.626
651.555,0.618
651.835,0.611
652.115,0.604
652.395,0.596
652.675,0.587
652.954,0.579
653.234,0.57
653.514,0.562
653.793,0.555
654.072,0.548
654.352,0.541
654.631,0.534
654.91,0.528
655.189,0.523
655.468,0.516
655.747,0.508
656.026,0.5
656.304,0.492
656.583,0.485
656.862,0.479
657.14,0.472
657.419,0.466
657.697,0.461
657.975,0.455
658.253,0.449
658.531,0.442
658.809,0.435
659.087,0.429
659.365,0.423
659.643,0.417
659.921,0.41
660.198,0.406
660.476,0.401
660.753,0.397
661.031,0.391
661.308,0.386
661.585,0.381
661.862,0.377
662.139,0.372
662.416,0.368
662.693,0.364
662.97,0.36
663.246,0.356
663.523,0.352
663.8,0.348
664.076,0.343
664.352,0.339
664.629,0.336
664.905,0.332
665.181,0.329
665.457,0.325
665.733,0.321
666.009,0.317
666.285,0.314
666.56,0.311
666.836,0.308
667.112,0.305
667.387,0.302
667.662,0.299
667.938,0.296
668.213,0.292
668.488,0.29
668.763,0.287
669.038,0.284
669.313,0.281
669.588,0.279
669.862,0.276
670.137,0.273
670.411,0.271
670.686,0.27
670.96,0.267
671.235,0.265
671.509,0.263
671.783,0.261
672.057,0.259
672.331,0.258
672.605,0.257
672.878,0.254
673.152,0.252
673.426,0.25
673.699,0.248
673.973,0.245
674.246,0.243
674.519,0.241
674.793,0.239
675.066,0.237
675.339,0.235
675.612,0.233
675.885,0.233
676.157,0.232
676.43,0.231
676.703,0.23
676.975,0.227
677.248,0.225
677.52,0.223
677.792,0.223
678.065,0.223
678.337,0.221
678.609,0.22
678.881,0.218
679.153,0.217
679.424,0.216
679.696,0.215
679.968,0.214
680.239,0.213
680.511,0.213
680.782,0.212
681.053,0.211
681.325,0.21
681.596,0.208
681.867,0.207
682.138,0.207
682.409,0.206
682.68,0.205
682.95,0.204
683.221,0.203
683.492,0.203
683.762,0.203
684.033,0.202
684.303,0.201
684.573,0.2
684.843,0.199
685.114,0.198
685.384,0.196
685.654,0.196
685.923,0.195
686.193,0.195
686.463,0.194
686.733,0.192
687.002,0.191
687.272,0.191
687.541,0.191
687.811,0.191
688.08,0.19
688.349,0.189
688.618,0.188
688.887,0.187
689.156,0.186
689.425,0.186
689.694,0.186
689.963,0.185
690.231,0.185
690.5,0.184
690.769,0.183
691.037,0.182
691.305,0.182
691.574,0.182
691.842,0.182
692.11,0.182
692.378,0.181
692.646,0.18
692.914,0.179
693.182,0.179
693.45,0.178
693.718,0.178
693.985,0.178
694.253,0.179
694.521,0.178
694.788,0.177
695.055,0.176
695.323,0.176
695.59,0.175
695.857,0.174
696.124,0.173
696.391,0.172
696.658,0.171
696.925,0.171
697.192,0.17
697.459,0.169
697.726,0.168
697.993,0.167
698.259,0.167
698.526,0.167
698.792,0.169
699.059,0.169
699.325,0.169
699.591,0.168
699.857,0.168
700.124,0.167
700.39,0.167
700.656,0.166
700.922,0.165
701.188,0.165
701.454,0.164
701.719,0.165
701.985,0.164
702.251,0.163
702.516,0.162
702.782,0.162
703.048,0.162
703.313,0.162
703.578,0.162
703.844,0.162
704.109,0.162
704.374,0.161
704.64,0.161
704.905,0.161
705.17,0.161
705.435,0.161
705.7,0.161
705.965,0.161
706.229,0.162
706.494,0.161
706.759,0.161
707.024,0.161
707.288,0.161
707.553,0.161
707.818,0.161
708.082,0.162
708.347,0.162
708.611,0.161
708.875,0.161
709.14,0.161
709.404,0.162
709.668,0.163
709.932,0.164
710.196,0.164
710.46,0.164
710.724,0.165
710.988,0.165
711.252,0.164
711.516,0.163
711.78,0.162
712.044,0.162
712.308,0.163
712.571,0.164
712.835,0.164
713.099,0.163
713.362,0.162
713.626,0.161
713.89,0.161
714.153,0.161
714.416,0.161
714.68,0.162
714.943,0.162
715.207,0.162
715.47,0.161
715.733,0.161
715.996,0.16
716.26,0.16
716.523,0.161
716.786,0.161
717.049,0.16
717.312,0.158
717.575,0.155
717.838,0.152
718.101,0.148
718.364,0.144
718.627,0.138
718.89,0.131
719.153,0.124
719.416,0.121
719.678,0.127
719.941,0.14
720.204,0.159
720.467,0.175
720.729,0.181
720.992,0.184
721.255,0.189
721.517,0.192
721.78,0.189
722.042,0.18
722.305,0.173
722.567,0.169
722.83,0.169
723.092,0.17
723.355,0.171
723.617,0.171
723.88,0.171
724.142,0.172
724.404,0.173
724.667,0.173
724.929,0.172
725.191,0.17
725.454,0.167
725.716,0.165
725.978,0.164
726.241,0.165
726.503,0.168
726.765,0.17
727.027,0.171
727.29,0.172
727.552,0.171
727.814,0.171
728.076,0.171
728.338,0.172
728.6,0.172
728.863,0.172
729.125,0.172
729.387,0.172
729.649,0.172
729.911,0.171
730.173,0.171
730.435,0.172
730.697,0.172
730.959,0.172
731.222,0.173
731.484,0.173
731.746,0.173
732.008,0.173
732.27,0.173
732.532,0.172
732.794,0.171
733.056,0.17
733.318,0.169
733.58,0.17
733.842,0.171
734.104,0.172
734.366,0.173
734.629,0.173
734.891,0.174
735.153,0.175
735.415,0.175
735.677,0.174
735.939,0.174
736.201,0.173
736.463,0.173
736.725,0.174
736.987,0.174
737.25,0.174
737.512,0.174
737.774,0.174
738.036,0.174
738.298,0.173
738.56,0.172
738.823,0.173
739.085,0.174
739.347,0.175
739.609,0.175
739.871,0.175
740.134,0.175
740.396,0.176
740.658,0.177
740.92,0.177
741.183,0.177
741.445,0.177
741.707,0.178
741.97,0.177
742.232,0.176
742.495,0.175
742.757,0.174
743.019,0.174
743.282,0.173
743.544,0.173
743.807,0.173
744.069,0.174
744.332,0.175
744.594,0.176
744.857,0.176
745.12,0.176
745.382,0.176
745.645,0.177
745.908,0.177
746.17,0.177
746.433,0.176
746.696,0.176
746.959,0.175
747.221,0.174
747.484,0.174
747.747,0.174
748.01,0.173
748.273,0.173
748.536,0.173
748.799,0.173
749.062,0.172
749.325,0.172
749.588,0.173
749.851,0.174
750.114,0.175
750.378,0.176
750.641,0.176
750.904,0.177
751.167,0.177
751.431,0.177
751.694,0.177
751.957,0.176
752.221,0.175
752.484,0.175
752.748,0.174
753.011,0.174
753.275,0.174
753.538,0.173
753.802,0.173
754.066,0.174
754.329,0.174
754.593,0.174
754.857,0.173
755.121,0.172
755.385,0.173
755.649,0.173
755.913,0.174
756.177,0.174
756.441,0.173
756.705,0.173
756.969,0.173
757.233,0.173
757.497,0.172
757.762,0.172
758.026,0.172
758.29,0.172
758.555,0.171
758.819,0.172
759.084,0.173
759.348,0.174
759.613,0.175
759.877,0.176
760.142,0.177
760.407,0.178
760.672,0.179
760.936,0.179
761.201,0.179
761.466,0.178
761.731,0.178
761.996,0.177
762.261,0.177
762.526,0.177
762.792,0.176
763.057,0.175
763.322,0.175
763.587,0.175
763.853,0.176
764.118,0.177
764.384,0.179
764.649,0.18
764.915,0.181
765.181,0.182
765.446,0.182
765.712,0.182
765.978,0.182
766.244,0.181
766.51,0.18
766.776,0.179
767.042,0.179
767.308,0.178
767.574,0.178
767.84,0.178
768.106,0.178
768.373,0.178
768.639,0.178
768.906,0.177
769.172,0.177
769.439,0.177
769.705,0.177
769.972,0.178
770.239,0.178
770.505,0.178
770.772,0.177
771.039,0.177
771.306,0.175
771.573,0.176
771.84,0.177
772.107,0.178
772.374,0.178
772.642,0.179
772.909,0.178
773.176,0.178
773.444,0.178
773.711,0.179
773.979,0.179
774.246,0.179
774.514,0.179
774.782,0.179
775.05,0.178
775.317,0.178
775.585,0.178
775.853,0.177
776.121,0.177
776.389,0.176
776.658,0.176
776.926,0.176
777.194,0.177
777.462,0.178
777.731,0.18
777.999,0.181
778.268,0.18
778.536,0.18
778.805,0.179
779.074,0.179
779.343,0.179
779.611,0.179
779.88,0.18
780.149,0.179
780.418,0.179
780.687,0.18
780.957,0.181
781.226,0.18
781.495,0.18
781.764,0.179
782.034,0.179
782.303,0.18
782.573,0.18
782.842,0.18
783.112,0.181
783.382,0.18
783.651,0.18
783.921,0.181
784.191,0.182
784.461,0.182
784.731,0.182
785.001,0.183
785.271,0.183
785.541,0.183
785.812,0.184
786.082,0.185
786.352,0.185
786.623,0.185
786.893,0.184
787.164,0.185
787.434,0.185
787.705,0.185
787.976,0.186
788.246,0.186
788.517,0.187
788.788,0.186
789.059,0.186
789.33,0.185
789.601,0.184
789.872,0.183
790.144,0.183
790.415,0.183
790.686,0.184
790.957,0.183
791.229,0.182
791.5,0.182
791.772,0.182
792.043,0.183
792.315,0.184
792.587,0.185
792.859,0.186
793.13,0.187
793.402,0.188
793.674,0.188
793.946,0.188
794.218,0.188
794.49,0.188
794.762,0.188
795.035,0.187
795.307,0.187
795.579,0.188
795.851,0.188
796.124,0.188
796.396,0.189
796.669,0.189
796.941,0.189
797.214,0.188
797.486,0.188
797.759,0.189
798.032,0.189
798.305,0.189
798.578,0.189
798.85,0.189
799.123,0.189
799.396,0.188
799.669,0.189
799.942,0.189
800.216,0.188
800.489,0.187
800.762,0.188
801.035,0.188
801.308,0.188
801.582,0.188
801.855,0.188
802.129,0.188
802.402,0.188
802.676,0.188
802.949,0.187
803.223,0.187
803.496,0.187
803.77,0.189
804.044,0.189
804.317,0.19
804.591,0.19
804.865,0.191
805.139,0.19
805.413,0.19
805.687,0.19
805.961,0.191
806.235,0.19
806.509,0.189
806.783,0.188
807.057,0.187
807.331,0.188
807.605,0.189
807.879,0.189
808.153,0.19
808.428,0.189
808.702,0.189
808.976,0.19
809.251,0.192
809.525,0.195
809.799,0.198
810.074,0.202
810.348,0.206
810.622,0.21
810.897,0.214
811.171,0.214
811.446,0.212
811.72,0.207
811.995,0.202
812.27,0.197
812.544,0.192
812.819,0.188
813.093,0.188
813.368,0.191
813.643,0.197
813.917,0.203
814.192,0.209
814.467,0.211
814.741,0.21
815.016,0.206
815.291,0.203
815.566,0.199
815.84,0.195
816.115,0.194
816.39,0.195
816.665,0.197
816.939,0.198
817.214,0.198
817.489,0.199
817.764,0.199
818.039,0.2
818.313,0.201
818.588,0.201
818.863,0.198
819.138,0.197
819.412,0.195
819.687,0.191
819.962,0.19
820.237,0.19
820.512,0.191
820.786,0.194
821.061,0.195
821.336,0.194
821.611,0.195
821.885,0.197
822.16,0.198
822.435,0.198
822.709,0.197
822.984,0.197
823.259,0.196
823.533,0.197
823.808,0.199
824.083,0.197
824.357,0.192
824.632,0.188
824.906,0.185
825.181,0.184
825.455,0.189
825.73,0.196
826.004,0.2
826.279,0.202
826.553,0.204
826.827,0.203
827.102,0.202
827.376,0.2
827.65,0.196
827.924,0.191
828.199,0.19
828.473,0.188
828.747,0.188
829.021,0.191
829.295,0.193
829.569,0.193
829.843,0.19
830.117,0.187
830.391,0.189
830.665,0.189
830.939,0.188
831.212,0.19
831.486,0.192
831.76,0.194
832.033,0.196
832.307,0.197
832.58,0.196
832.854,0.196
833.127,0.197
833.401,0.194
833.674,0.191
833.947,0.189
834.22,0.189
834.493,0.191
834.766,0.194
835.039,0.193
835.312,0.192
835.585,0.197
835.858,0.2
836.131,0.2
836.403,0.199
836.676,0.199
836.949,0.196
837.221,0.192
837.493,0.189
837.766,0.188
838.038,0.191
838.31,0.194
838.582,0.196
838.854,0.199
839.126,0.201
839.398,0.202
839.67,0.203
839.941,0.203
840.213,0.203
840.484,0.203
840.756,0.2
841.027,0.198
841.298,0.199
841.569,0.2
841.84,0.203
842.111,0.204
842.382,0.202
842.653,0.198
842.924,0.19
843.194,0.18
843.465,0.177
843.735,0.176
844.005,0.178
844.275,0.183
844.545,0.189
844.815,0.196
845.085,0.204
845.355,0.208
845.625,0.21
845.894,0.21
846.163,0.206
846.433,0.199
846.702,0.195
846.971,0.19
847.24,0.19
847.509,0.196
847.777,0.204
848.046,0.203
848.314,0.197
848.583,0.191
848.851,0.185
849.119,0.185
849.387,0.191
849.654,0.196
849.922,0.196
850.19,0.196
850.457,0.198
850.724,0.199
850.991,0.2
851.258,0.197
851.525,0.195
851.792,0.191
852.059,0.188
852.325,0.191
852.591,0.196
852.857,0.198
853.123,0.201
853.389,0.2
853.655,0.198
853.92,0.194
854.186,0.189
854.451,0.185
854.716,0.183
854.981,0.19
855.246,0.199
855.51,0.202
855.775,0.202
856.039,0.2
856.303,0.199
856.567,0.198
856.831,0.196
857.095,0.198
857.358,0.199
857.621,0.201
857.885,0.2
858.147,0.2
858.41,0.201
858.673,0.2
858.935,0.196
859.198,0.19
859.46,0.188
859.722,0.19
859.983,0.194
860.245,0.198
860.506,0.198
860.767,0.19
861.028,0.182
861.289,0.18
861.55,0.181
861.81,0.183
862.071,0.187
862.331,0.187
862.59,0.189
862.85,0.195
863.11,0.198
863.369,0.199
863.628,0.2
863.887,0.199
864.146,0.198
864.404,0.197
864.662,0.2
864.92,0.203
865.178,0.203
865.436,0.199
865.694,0.192
865.951,0.186
866.208,0.184
866.465,0.186
866.721,0.192
866.978,0.197
867.234,0.198
867.49,0.198
867.746,0.194
868.002,0.189
868.257,0.184
868.512,0.183
868.767,0.185
869.022,0.185
869.276,0.187
869.531,0.191
869.785,0.198
870.039,0.202
870.292,0.203
870.546,0.2
870.799,0.194
871.052,0.189
871.304,0.187
871.557,0.192
871.809,0.196
872.061,0.2
872.313,0.204
872.565,0.204
872.816,0.202
873.067,0.198
873.318,0.192
873.569,0.184
873.819,0.183
874.069,0.184
874.319,0.186
874.569,0.187
874.818,0.188
875.068,0.191
875.317,0.195
875.565,0.197
875.814,0.194
876.062,0.19
876.31,0.186
876.558,0.184
876.806,0.187
877.053,0.194
877.3,0.199
877.547,0.202
877.793,0.201
878.04,0.197
878.286,0.194
878.532,0.193
878.777,0.193
879.023,0.197
879.268,0.201
879.512,0.205
879.757,0.204
880.001,0.202
880.245,0.198
880.489,0.196
880.733,0.193
880.976,0.194
881.219,0.192
881.462,0.188
881.705,0.188
881.947,0.186
882.189,0.184
882.431,0.181
882.673,0.184
882.914,0.188
883.155,0.192
883.396,0.195
883.636,0.196
883.877,0.195
884.117,0.19
884.356,0.186
884.596,0.185
884.835,0.186
885.074,0.187
885.313,0.187
885.552,0.183
885.79,0.182
886.028,0.183
886.266,0.188
886.503,0.19
886.74,0.189
886.977,0.187
887.214,0.186
887.451,0.186
887.687,0.186
887.923,0.185
888.159,0.184
888.394,0.183
888.629,0.178
888.864,0.177
889.099,0.18
889.333,0.182
889.568,0.178
889.802,0.175
890.035,0.171
890.269,0.168
890.502,0.174
890.735,0.186
890.968,0.192
891.2,0.193
891.432,0.189
891.664,0.183
891.896,0.176
892.128,0.169
892.359,0.17
892.59,0.177
892.821,0.182
893.051,0.187
893.282,0.191
893.512,0.192
893.741,0.19
893.971,0.184
894.2,0.177
894.429,0.173
894.658,0.173
894.887,0.171
895.115,0.17
895.344,0.17
895.572,0.171
895.799,0.168
896.027,0.167
896.254,0.167
896.481,0.169
896.708,0.174
896.934,0.184
897.161,0.192
897.387,0.196
897.613,0.196
897.839,0.195
898.064,0.191
898.289,0.183
898.515,0.177
898.739,0.174
898.964,0.17
899.189,0.168
899.413,0.167
899.637,0.165
899.861,0.161
900.084,0.159
900.308,0.158
900.531,0.157
900.754,0.158
900.977,0.163
901.2,0.167
901.422,0.169
901.645,0.173
901.867,0.177
902.089,0.175
902.31,0.173
902.532,0.173
902.753,0.174
902.975,0.175
903.196,0.177
903.417,0.178
903.638,0.174
903.858,0.17
904.079,0.166
904.299,0.163
904.519,0.163
904.739,0.165
904.959,0.168
905.179,0.171
905.398,0.173
905.617,0.173
905.837,0.174
906.056,0.171
906.275,0.171
906.494,0.171
906.713,0.167
906.931,0.165
907.15,0.166
907.368,0.163
907.586,0.16
907.805,0.158
908.023,0.153
908.241,0.147
908.459,0.149
908.677,0.15
908.894,0.152
909.112,0.157
909.329,0.164
909.547,0.171
909.764,0.173
909.982,0.172
910.199,0.17
910.416,0.169
910.633,0.17
910.85,0.17
911.068,0.165
911.285,0.159
911.502,0.159
911.718,0.161
911.935,0.165
912.152,0.166
912.369,0.164
912.586,0.16
912.803,0.157
913.02,0.159
913.236,0.16
913.453,0.159
913.67,0.158
913.887,0.155
914.104,0.148
914.321,0.143
914.538,0.142
914.754,0.146
914.971,0.156
915.188,0.164
915.405,0.168
915.623,0.171
915.84,0.173
916.057,0.171
916.274,0.17
916.492,0.168
916.709,0.165
916.927,0.163
917.144,0.162
917.362,0.158
917.58,0.154
917.798,0.15
918.016,0.145
918.234,0.142
918.453,0.142
918.671,0.143
918.89,0.146
919.108,0.149
919.327,0.153
919.547,0.155
919.766,0.158
919.985,0.159
920.205,0.154
920.425,0.149
920.645,0.144
920.865,0.142
921.085,0.141
921.306,0.141
921.527,0.143
921.748,0.146
921.969,0.146
922.191,0.145
922.413,0.148
922.635,0.15
922.857,0.15
923.08,0.148
923.303,0.143
923.526,0.137
923.75,0.132
923.974,0.128
924.198,0.129
924.422,0.129
924.647,0.124
924.873,0.123
925.098,0.12
925.324,0.115
925.55,0.112
925.777,0.113
926.004,0.116
926.232,0.12
926.46,0.122
926.688,0.119
926.917,0.116
927.146,0.115
927.376,0.112
927.606,0.114
927.836,0.117
928.067,0.116
928.299,0.115
928.531,0.115
928.763,0.117
928.996,0.12
929.23,0.119
929.464,0.115
929.699,0.112
929.934,0.108
930.17,0.105
930.406,0.102
930.643,0.097
930.88,0.093
931.119,0.094
931.357,0.093
931.597,0.09
931.837,0.089
932.077,0.088
932.319,0.092
932.561,0.101
932.804,0.11
933.047,0.114
933.291,0.11
933.536,0.104
933.782,0.099
934.028,0.093
934.275,0.091
934.523,0.092
934.772,0.093
935.021,0.096
935.272,0.1
935.523,0.102
935.775,0.104
936.028,0.103
936.281,0.099
936.536,0.092
936.792,0.087
937.048,0.082
937.305,0.08
937.563,0.076
937.823,0.072
938.083,0.066
938.344,0.06
938.606,0.055
938.869,0.054
939.133,0.055
939.398,0.057
939.665,0.062
939.932,0.067
940.2,0.07
940.47,0.069
940.74,0.067
941.012,0.064
941.285,0.065
941.559,0.07
941.834,0.074
942.11,0.074
942.388,0.074
942.666,0.07
942.946,0.068
943.227,0.071
943.51,0.072
943.794,0.076
944.079,0.078
944.365,0.076
944.653,0.072
944.942,0.077
945.232,0.083
945.524,0.088
945.817,0.094
946.112,0.099
946.408,0.099
946.705,0.096
947.004,0.091
947.305,0.083
947.607,0.075
947.91,0.072
948.215,0.069
948.522,0.067
948.83,0.068
949.139,0.071
949.451,0.073
949.764,0.077
950.079,0.078
